DU=f:\data\chemist\nmr\, USER=chemist, NAME=Z85754, EXPNO=10, PROCNO=1
F1=15.000ppm, F2=-0.500ppm, MI=0.50cm, MAXI=1000000.00cm, PC=1.000
           #     ADDRESS            FREQUENCY         INTENSITY
                           [Hz]        [PPM]
     1     34391.2     2953.280       7.3808         0.60
     2     34408.8     2950.599       7.3741         0.54
     3     34435.3     2946.557       7.3640         1.19
     4     34473.3     2940.755       7.3495         1.01
     5     34485.9     2938.835       7.3447         1.15
     6     34523.9     2933.033       7.3302         1.43
     7     34575.8     2925.110       7.3104         0.97
     8     34590.0     2922.950       7.3050         0.91
     9     34646.6     2914.307       7.2834        36.30
    10     34677.8     2909.545       7.2715         8.47
    11     34720.8     2902.983       7.2551        16.82
    12     34732.6     2901.183       7.2506        16.67
    13     34775.7     2894.620       7.2342        31.74
    14     34786.9     2892.900       7.2299        12.65
    15     34818.7     2888.058       7.2178        16.48
    16     34830.5     2886.258       7.2133        18.77
    17     34873.2     2879.736       7.1970         9.34
    18     34918.6     2872.813       7.1797         1.26
    19     34930.1     2871.053       7.1753         0.65
    20     34960.5     2866.411       7.1637         0.73
    21     34973.4     2864.451       7.1588         0.79
    22     35014.3     2858.209       7.1432         0.57
    23     35038.1     2854.567       7.1341         0.90
    24     35081.4     2847.965       7.1176         1.55
    25     35129.9     2840.563       7.0991         1.00
    26     35201.3     2829.679       7.0719         0.70
    27     35265.0     2819.956       7.0476         0.96
    28     35321.6     2811.313       7.0260         0.70
    29     35411.6     2797.589       6.9917         1.60
    30     35576.0     2772.501       6.9290         5.14
    31     35587.0     2770.820       6.9248         6.96
    32     35616.1     2766.379       6.9137        44.73
    33     35642.3     2762.377       6.9037        10.64
    34     35667.0     2758.616       6.8943        63.17
    35     35693.7     2754.535       6.8841         9.90
    36     35718.9     2750.694       6.8745        37.72
    37     35749.8     2745.972       6.8627         5.34
    38     35758.5     2744.652       6.8594         5.07
    39     35810.7     2736.689       6.8395         2.00
    40     35862.6     2728.767       6.8197         1.05
    41     40513.2     2019.136       5.0462         0.58
    42     41210.8     1912.701       4.7802         0.79
    43     41266.1     1904.259       4.7591         0.72
    44     42628.9     1696.311       4.2394         0.54
    45     42713.3     1683.427       4.2072         0.57
    46     42744.8     1678.625       4.1952         0.56
    47     42782.6     1672.864       4.1808         0.59
    48     42864.9     1660.299       4.1494         1.00
    49     42961.1     1645.615       4.1127         1.03
    50     43035.3     1634.291       4.0844         0.89
    51     43079.1     1627.609       4.0677         0.82
    52     43200.6     1609.083       4.0214         1.31
    53     43288.1     1595.718       3.9880         4.55
    54     43320.4     1590.797       3.9757        31.99
    55     43355.5     1585.435       3.9623         2.80
    56     43402.2     1578.313       3.9445        45.45
    57     43436.8     1573.031       3.9313         2.37
    58     43476.9     1566.909       3.9160         1.36
    59     43508.9     1562.027       3.9038         1.17
    60     43548.5     1555.986       3.8887         1.20
    61     43578.7     1551.384       3.8772         1.25
    62     43709.3     1531.458       3.8274        46.07
    63     43791.1     1518.974       3.7962        30.56
    64     43857.7     1508.810       3.7708         1.30
    65     43907.0     1501.288       3.7520         2.19
    66     43952.1     1494.406       3.7348         1.35
    67     43995.6     1487.763       3.7182         2.58
    68     44011.6     1485.323       3.7121         1.77
    69     44045.2     1480.201       3.6993         2.76
    70     44082.2     1474.559       3.6852        28.97
    71     44103.7     1471.278       3.6770        31.24
    72     44152.7     1463.796       3.6583        39.94
    73     44174.5     1460.474       3.6500        39.35
    74     44206.7     1455.553       3.6377         2.77
    75     44251.6     1448.711       3.6206         1.86
    76     44277.0     1444.829       3.6109         1.59
    77     44300.9     1441.188       3.6018         1.25
    78     44329.7     1436.787       3.5908         2.51
    79     44409.4     1424.623       3.5604         1.70
    80     44431.7     1421.222       3.5519         2.31
    81     44485.0     1413.099       3.5316        37.62
    82     44539.8     1404.736       3.5107        38.78
    83     44555.5     1402.336       3.5047        28.76
    84     44610.3     1393.973       3.4838        27.14
    85     44702.6     1379.888       3.4486         0.92
    86     44760.0     1371.125       3.4267         0.85
    87     44780.7     1367.964       3.4188         0.86
    88     44834.0     1359.842       3.3985         0.82
    89     44907.1     1348.678       3.3706         0.83
    90     44945.9     1342.756       3.3558         0.96
    91     45001.5     1334.273       3.3346         0.96
    92     45017.0     1331.913       3.3287         0.90
    93     45071.3     1323.630       3.3080         0.88
    94     45117.4     1316.588       3.2904         0.79
    95     45299.2     1288.859       3.2211         0.67
    96     45369.7     1278.095       3.1942         0.65
    97     45441.0     1267.212       3.1670         0.62
    98     45579.2     1246.125       3.1143         0.55
    99     45707.2     1226.599       3.0655         0.52
   100     46640.7     1084.152       2.7095         0.50
   101     46692.1     1076.310       2.6899         0.51
   102     46960.9     1035.296       2.5874         1.08
   103     46994.7     1030.135       2.5745         1.38
   104     47038.3     1023.493       2.5579        12.36
   105     47070.3     1018.611       2.5457        20.34
   106     47097.0     1014.530       2.5355        18.80
   107     47124.5     1010.328       2.5250        20.80
   108     47156.8     1005.407       2.5127        12.57
   109     47184.1     1001.245       2.5023         2.99
   110     47230.5      994.163       2.4846         3.17
   111     47252.8      990.762       2.4761         1.67
   112     47276.6      987.121       2.4670         1.55
   113     47300.0      983.560       2.4581         1.39
   114     47346.7      976.437       2.4403         0.51
   115     47680.5      925.501       2.3130         0.58
   116     47725.6      918.618       2.2958         0.67
   117     47757.8      913.697       2.2835         2.57
   118     47792.2      908.455       2.2704         0.63
   119     47817.4      904.614       2.2608         0.80
   120     47843.3      900.653       2.2509         1.06
   121     47888.4      893.770       2.2337         1.27
   122     47932.2      887.088       2.2170         1.39
   123     47976.5      880.326       2.2001         1.11
   124     48025.8      872.804       2.1813         1.00
   125     48960.2      730.237       1.8250         0.57
   126     49007.4      723.035       1.8070         0.86
   127     49038.6      718.273       1.7951         3.46
   128     49067.4      713.872       1.7841         3.86
   129     49088.1      710.711       1.7762         9.63
   130     49116.7      706.349       1.7653        10.10
   131     49136.6      703.309       1.7577        13.85
   132     49165.7      698.867       1.7466        15.26
   133     49184.4      696.026       1.7395        18.59
   134     49212.9      691.665       1.7286        22.28
   135     49233.9      688.464       1.7206        19.98
   136     49247.8      686.343       1.7153        16.99
   137     49261.2      684.302       1.7102        24.04
   138     49283.2      680.941       1.7018        12.23
   139     49293.2      679.421       1.6980        15.20
   140     49313.6      676.300       1.6902        16.49
   141     49347.5      671.138       1.6773         7.38
   142     49361.4      669.017       1.6720         5.95
   143     49368.4      667.937       1.6693         6.20
   144     49393.1      664.176       1.6599         2.33
   145     49414.9      660.855       1.6516         2.01
   146     49574.0      636.567       1.5909         4.60
   147     49623.1      629.084       1.5722        13.59
   148     49659.3      623.563       1.5584        15.09
   149     49671.3      621.722       1.5538        17.39
   150     49707.5      616.200       1.5400        18.12
   151     49718.8      614.480       1.5357        15.66
   152     49755.0      608.958       1.5219        15.35
   153     49767.0      607.117       1.5173        11.90
   154     49803.2      601.595       1.5035        10.75
   155     49816.1      599.635       1.4986         5.47
   156     49837.6      596.354       1.4904         3.29
   157     49851.7      594.193       1.4850         3.98
   158     49880.3      589.832       1.4741         2.43
   159     49928.6      582.469       1.4557         1.74
   160     49959.8      577.708       1.4438        17.87
   161     50184.8      543.377       1.3580         0.57
   162     50233.3      535.974       1.3395         0.87
   163     50250.3      533.373       1.3330         0.92
   164     50275.2      529.572       1.3235         1.42
   165     50299.1      525.931       1.3144         1.26
   166     50321.4      522.530       1.3059         2.41
   167     50367.0      515.568       1.2885         3.43
   168     50419.2      507.605       1.2686        12.21
   169     50455.9      502.003       1.2546         2.37
   170     50502.1      494.961       1.2370         1.48
   171     50543.8      488.599       1.2211         0.86
   172     50588.6      481.757       1.2040         0.59
   173     50691.7      466.031       1.1647         0.50
   174     50738.6      458.869       1.1468         0.53
   175     50767.4      454.468       1.1358         0.61
   176     50821.7      446.185       1.1151         0.69
   177     50872.6      438.422       1.0957         0.81
   178     50898.8      434.421       1.0857         0.85
   179     50922.9      430.740       1.0765         0.71
   180     50944.7      427.419       1.0682         0.87
   181     50970.4      423.498       1.0584         1.21
   182     50986.9      420.977       1.0521         1.28
   183     51013.9      416.855       1.0418         1.35
   184     51042.3      412.534       1.0310         4.18
   185     51088.9      405.412       1.0132         7.12
   186     51135.6      398.289       0.9954         3.88
   187     51148.7      396.289       0.9904         3.03
   188     51195.9      389.086       0.9724         2.24
   189     51233.7      383.325       0.9580         1.62
   190     51254.9      380.083       0.9499         1.86
   191     51276.7      376.762       0.9416         3.29
   192     51325.5      369.320       0.9230         6.19
   193     51334.6      367.920       0.9195         5.72
   194     51391.8      359.197       0.8977        97.19
   195     51441.1      351.674       0.8789       200.00
   196     51458.1      349.073       0.8724       199.08
   197     51490.9      344.072       0.8599       113.61
   198     51503.8      342.111       0.8550       187.23
   199     51539.4      336.669       0.8414        18.24
   200     51573.8      331.428       0.8283        10.07
   201     51586.9      329.427       0.8233         6.70
   202     51621.3      324.185       0.8102         6.99
   203     51856.2      288.334       0.7206         0.78
   204     51874.6      285.533       0.7136         0.77
   205     51919.9      278.611       0.6963         0.72
   206     53519.0       34.611       0.0865         2.95
